#Preprocessed CD spectrum:
#source: /home/gnagy/Programs/SESCA_dev/examples/7-Spectrum_preparation
#data columns:  [1, 5]
#input format:  mdeg
#spectrum files:
#CSAplus_01.dat
#CSAplus_02.dat
#CSAplus_03.dat
#basline files:

#   wvlgth  Int_avg   Int_sd 
    300.0   281.606     0.388  
    299.5   281.606     0.388  
    299.0   281.606     0.388  
    298.5   281.606     0.388  
    298.0   281.606     0.388  
    297.5   281.606     0.388  
    297.0   281.606     0.388  
    296.5   281.606     0.388  
    296.0   281.606     0.388  
    295.5   281.606     0.388  
    295.0   281.596     0.384  
    294.5   281.586     0.380  
    294.0   281.484     0.296  
    293.5   281.403     0.249  
    293.0   281.372     0.290  
    292.5   281.331     0.281  
    292.0   281.179     0.199  
    291.5   280.472     0.238  
    291.0   280.075     0.217  
    290.5   280.075     0.217  
    290.0   280.156     0.104  
    289.5   280.156     0.104  
    289.0   280.156     0.104  
    288.5   280.156     0.104  
    288.0   280.156     0.104  
    287.5   280.156     0.104  
    287.0   280.156     0.104  
    286.5   280.156     0.104  
    286.0   280.156     0.104  
    285.5   280.156     0.104  
    285.0   280.156     0.104  
    284.5   280.156     0.104  
    284.0   280.156     0.104  
    283.5   280.156     0.104  
    283.0   280.156     0.104  
    282.5   280.156     0.104  
    282.0   280.156     0.104  
    281.5   280.156     0.104  
    281.0   280.126     0.101  
    280.5   280.126     0.101  
    280.0   280.126     0.101  
    279.5   280.126     0.101  
    279.0   280.126     0.101  
    278.5   280.126     0.101  
    278.0   280.126     0.101  
    277.5   280.126     0.101  
    277.0   280.126     0.101  
    276.5   280.126     0.101  
    276.0   280.126     0.101  
    275.5   280.126     0.101  
    275.0   280.126     0.101  
    274.5   280.126     0.101  
    274.0   280.126     0.101  
    273.5   280.126     0.101  
    273.0   280.126     0.101  
    272.5   280.335     0.262  
    272.0   280.335     0.262  
    271.5   280.497     0.145  
    271.0   280.691     0.224  
    270.5   280.691     0.224  
    270.0   280.731     0.176  
    269.5   281.036     0.357  
    269.0   281.118     0.243  
    268.5   281.255     0.056  
    268.0   281.860     0.120  
    267.5   281.982     0.216  
    267.0   281.982     0.216  
    266.5   282.522     0.374  
    266.0   282.883     0.159  
    265.5   283.046     0.206  
    265.0   283.269     0.339  
    264.5   283.839     0.056  
    264.0   284.124     0.262  
    263.5   284.469     0.242  
    263.0   284.749     0.137  
    262.5   284.973     0.352  
    262.0   285.787     0.094  
    261.5   286.011     0.200  
    261.0   286.011     0.200  
    260.5   286.295     0.026  
    260.0   287.058     0.317  
    259.5   287.277     0.106  
    259.0   287.521     0.252  
    258.5   288.254     0.216  
    258.0   288.254     0.216  
    257.5   288.600     0.328  
    257.0   288.803     0.378  
    256.5   289.256     0.160  
    256.0   289.337     0.112  
    255.5   289.378     0.126  
    255.0   289.856     0.119  
    254.5   289.856     0.119  
    254.0   289.856     0.119  
    253.5   290.187     0.159  
    253.0   290.268     0.233  
    252.5   290.349     0.273  
    252.0   290.507     0.150  
    251.5   290.853     0.237  
    251.0   290.873     0.212  
    250.5   291.112     0.393  
    250.0   291.387     0.139  
    249.5   291.529     0.202  
    249.0   291.723     0.368  
    248.5   291.723     0.368  
    248.0   292.043     0.125  
    247.5   292.043     0.125  
    247.0   292.465     0.050  
    246.5   292.623     0.145  
    246.0   292.806     0.274  
    245.5   292.806     0.274  
    245.0   293.076     0.192  
    244.5   293.665     0.287  
    244.0   293.854     0.313  
    243.5   294.118     0.062  
    243.0   294.312     0.242  
    242.5   294.612     0.319  
    242.0   295.008     0.257  
    241.5   295.339     0.214  
    241.0   295.725     0.167  
    240.5   295.970     0.331  
    240.0   296.783     0.307  
    239.5   296.987     0.125  
    239.0   297.826     0.424  
    238.5   298.162     0.133  
    238.0   298.533     0.212  
    237.5   299.306     0.278  
    237.0   299.601     0.081  
    236.5   300.201     0.324  
    236.0   300.542     0.050  
    235.5   300.847     0.305  
    235.0   301.941     0.174  
    234.5   302.109     0.069  
    234.0   302.765     0.162  
    233.5   303.162     0.086  
    233.0   303.889     0.280  
    232.5   304.306     0.069  
    232.0   304.550     0.245  
    231.5   305.206     0.285  
    231.0   305.817     0.078  
    230.5   306.061     0.250  
    230.0   306.371     0.132  
    229.5   306.371     0.132  
    229.0   307.287     0.150  
    228.5   307.933     0.253  
    228.0   308.502     0.155  
    227.5   309.224     0.268  
    227.0   309.367     0.140  
    226.5   310.054     0.383  
    226.0   310.496     0.312  
    225.5   310.822     0.156  
    225.0   311.218     0.216  
    224.5   311.656     0.105  
    224.0   312.561     0.152  
    223.5   312.643     0.101  
    223.0   313.237     0.252  
    222.5   313.822     0.183  
    222.0   314.117     0.119  
    221.5   314.616     0.274  
    221.0   315.023     0.050  
    220.5   315.638     0.176  
    220.0   316.218     0.235  
    219.5   316.437     0.078  
    219.0   317.098     0.093  
    218.5   317.484     0.071  
    218.0   317.927     0.194  
    217.5   318.476     0.081  
    217.0   318.812     0.186  
    216.5   319.539     0.125  
    216.0   319.600     0.043  
    215.5   319.743     0.168  
    215.0   320.440     0.090  
    214.5   320.811     0.044  
    214.0   321.513     0.040  
    213.5   321.614     0.105  
    213.0   322.418     0.078  
    212.5   323.044     0.149  
    212.0   323.461     0.080  
    211.5   324.203     0.140  
    211.0   324.783     0.108  
    210.5   325.465     0.071  
    210.0   326.319     0.093  
    209.5   327.138     0.127  
    209.0   328.125     0.165  
    208.5   329.000     0.156  
    208.0   330.180     0.137  
    207.5   331.243     0.102  
    207.0   332.520     0.169  
    206.5   333.806     0.140  
    206.0   335.032     0.209  
    205.5   336.441     0.216  
    205.0   338.140     0.181  
    204.5   339.828     0.130  
    204.0   341.288     0.038  
    203.5   343.333     0.272  
    203.0   344.970     0.119  
    202.5   347.494     0.174  
    202.0   349.238     0.281  
    201.5   351.532     0.206  
    201.0   354.050     0.177  
    200.5   356.033     0.237  
    200.0   359.156     0.537  
    199.5   361.231     0.158  
    199.0   364.283     0.343  
    198.5   367.050     0.381  
    198.0   369.497     0.102  
    197.5   372.910     0.560  
    197.0   375.249     0.295  
    196.5   378.367     0.428  
    196.0   381.505     0.177  
    195.5   384.842     0.213  
    195.0   389.023     0.461  
    194.5   391.210     0.201  
    194.0   393.692     0.304  
    193.5   397.176     0.146  
    193.0   401.316     0.320  
    192.5   407.100     0.635  
    192.0   407.201     0.559  
    191.5   410.044     0.117  
    191.0   415.420     0.497  
    190.5   424.306     1.085  
    190.0   424.235     0.989  
    189.5   424.083     0.786  
    189.0   430.232     0.805  
    188.5   444.646     2.149  
    188.0   442.541     1.241  
    187.5   442.541     1.241  
    187.0   457.209     2.174  
    186.5   478.297     3.259  
    186.0   468.119     1.613  
    185.5   479.762     2.718  
    185.0   512.995     4.348  
    184.5   520.432     4.248  
    184.0   520.828     3.775  
    183.5   572.260     6.142  
    183.0   615.850     7.989  
    182.5   637.609     8.219  
    182.0   747.782    14.098  
    181.5   824.717    14.612  
    181.0   914.317    12.329  
    180.5   992.208    10.998  
    180.0   999.985     0.000  
