#Derived Basis Spectrum set for calculating CD spectra
#spectrum_list: /home/gnagy/Documents/Gottingen/IDPs/experiments/CD_test/sets/spectrum_SP175.inp
#SS_list: /home/gnagy/Documents/Gottingen/IDPs/experiments/CD_test/sets/Dssp_SP175.inp
#Number of decomposed  spectra: 71

#Combination matrix for Structural Properties:
#Basis/     3-Helix  4-Helix  5-Helix   Bend   Beta-Bridge Beta-strand  Turn   Unclassified 
# Helix :    1.000    1.000    1.000    0.000    0.000     0.000        0.000    0.000  
# Sheet :    0.000    0.000    0.000    0.000    0.000     1.000        0.000    0.000  
# Coil  :    0.000    0.000    0.000    1.000    1.000     0.000        1.000    1.000  


#|  Wavelength      Helix         Sheet          Coil            
#      nm         CD(kMRE)       CD(kMRE)       CD(kMRE)      
     269.0         0.219          0.333         -0.265      
     268.0         0.342          0.287         -0.288      
     267.0         0.084          0.162         -0.104      
     266.0        -0.085          0.037          0.040      
     265.0        -0.100          0.024          0.045      
     264.0        -0.046          0.007          0.027      
     263.0         0.020          0.122         -0.084      
     262.0        -0.060          0.144         -0.062      
     261.0        -0.157          0.157         -0.017      
     260.0        -0.151          0.100          0.056      
     259.0        -0.045          0.030          0.063      
     258.0         0.029          0.010          0.034      
     257.0         0.022          0.057         -0.029      
     256.0         0.013          0.128         -0.099      
     255.0        -0.050          0.208         -0.131      
     254.0        -0.048          0.212         -0.112      
     253.0        -0.078          0.101         -0.024      
     252.0        -0.180          0.049          0.024      
     251.0        -0.287         -0.032          0.104      
     250.0        -0.259          0.050         -0.008      
     249.0        -0.269          0.159         -0.120      
     248.0        -0.245          0.326         -0.303      
     247.0        -0.321          0.409         -0.397      
     246.0        -0.489          0.574         -0.519      
     245.0        -0.728          0.762         -0.674      
     244.0        -0.952          0.951         -0.850      
     243.0        -1.269          1.116         -0.997      
     242.0        -1.787          1.265         -1.109      
     241.0        -2.401          1.401         -1.193      
     240.0        -3.193          1.658         -1.302      
     239.0        -4.257          1.970         -1.451      
     238.0        -5.445          2.243         -1.566      
     237.0        -6.789          2.615         -1.763      
     236.0        -8.243          3.091         -2.062      
     235.0        -9.785          3.594         -2.447      
     234.0        -11.577          4.074         -2.782      
     233.0        -13.551          4.515         -3.177      
     232.0        -15.829          4.634         -3.355      
     231.0        -18.292          4.485         -3.353      
     230.0        -20.818          4.170         -3.275      
     229.0        -23.272          3.610         -3.080      
     228.0        -25.578          2.886         -2.827      
     227.0        -27.601          2.011         -2.597      
     226.0        -29.454          0.929         -2.266      
     225.0        -30.977         -0.316         -1.906      
     224.0        -32.123         -1.632         -1.561      
     223.0        -32.945         -3.087         -1.165      
     222.0        -33.423         -4.464         -0.832      
     221.0        -33.549         -5.720         -0.614      
     220.0        -33.371         -6.610         -0.633      
     219.0        -32.953         -7.345         -0.765      
     218.0        -32.320         -7.858         -0.993      
     217.0        -31.731         -8.105         -1.268      
     216.0        -31.177         -8.042         -1.566      
     215.0        -30.593         -7.523         -2.088      
     214.0        -30.162         -6.636         -2.674      
     213.0        -29.858         -5.526         -3.389      
     212.0        -29.621         -4.078         -4.293      
     211.0        -29.606         -2.258         -5.386      
     210.0        -29.524         -0.246         -6.613      
     209.0        -28.971          2.141         -8.163      
     208.0        -27.545          4.855         -9.922      
     207.0        -24.785          7.728         -11.911      
     206.0        -20.439         10.853         -14.204      
     205.0        -14.840         13.946         -16.485      
     204.0        -8.025         16.764         -18.666      
     203.0        -0.320         19.410         -20.663      
     202.0         8.139         21.802         -22.386      
     201.0        17.365         23.604         -23.606      
     200.0        27.303         24.866         -24.430      
     199.0        37.585         25.422         -24.665      
     198.0        47.575         25.078         -24.241      
     197.0        56.287         24.007         -23.249      
     196.0        63.109         22.439         -21.831      
     195.0        67.711         20.432         -20.013      
     194.0        70.185         18.257         -17.963      
     193.0        70.788         15.977         -15.793      
     192.0        69.729         13.793         -13.634      
     191.0        67.285         11.668         -11.700      
     190.0        63.682          9.595         -10.023      
     189.0        58.829          7.306         -8.394      
     188.0        53.433          4.868         -6.950      
     187.0        47.855          2.080         -5.652      
     186.0        42.366         -0.575         -4.681      
     185.0        37.493         -3.076         -4.144      
     184.0        33.061         -5.502         -3.951      
     183.0        28.885         -7.906         -3.912      
     182.0        25.243         -10.511         -3.822      
     181.0        22.263         -12.861         -3.975      
     180.0        19.678         -14.963         -4.157      
     179.0        17.548         -16.804         -4.446      
     178.0        15.641         -18.168         -4.936      
     177.0        13.565         -19.732         -4.956      
     176.0        11.417         -21.080         -4.800      
     175.0         9.378         -21.753         -4.831      


#Calibration curves for SS error estimation:
# curve     1-globular,unscaled  2-globular,rescaled  3-general,unscaled   4-general,rescaled
#RMSDj/     dSSj_mean  dSSj_SD   dSSj_mean  dSSj_SD   dSSj_mean  dSSj_SD   dSSj_mean  dSSj_SD
#   0.000     0.000     0.014      0.000     0.022      0.000     0.017      0.000     0.037 
#   0.150     0.031     0.014      0.032     0.022      0.017     0.017      0.040     0.037 
#   0.450     0.046     0.023      0.059     0.035      0.051     0.035      0.067     0.043 
#   0.750     0.062     0.033      0.076     0.043      0.067     0.042      0.086     0.051 
#   1.050     0.071     0.037      0.088     0.052      0.075     0.043      0.102     0.059 
#   1.350     0.078     0.041      0.103     0.060      0.084     0.046      0.116     0.065 
#   1.650     0.085     0.044      0.123     0.068      0.089     0.048      0.137     0.072 
#   1.950     0.093     0.049      0.147     0.073      0.102     0.052      0.165     0.079 
#   2.250     0.102     0.053      0.174     0.081      0.116     0.054      0.196     0.088 
#   2.550     0.111     0.056      0.197     0.089      0.127     0.057      0.226     0.096 
#   2.850     0.122     0.059      0.219     0.096      0.142     0.062      0.251     0.102 
#   3.150     0.131     0.062      0.233     0.096      0.155     0.065      0.267     0.105 
#   3.450     0.143     0.067      0.246     0.094      0.168     0.070      0.283     0.102 
#   3.750     0.153     0.069      0.256     0.095      0.180     0.073      0.298     0.103 
#   4.050     0.161     0.072      0.263     0.097      0.192     0.077      0.313     0.104 
#   4.350     0.168     0.073      0.271     0.096      0.204     0.080      0.329     0.107 
#   4.650     0.175     0.075      0.281     0.097      0.217     0.084      0.343     0.110 
#   4.950     0.182     0.078      0.288     0.097      0.225     0.087      0.359     0.114 
#   5.250     0.188     0.080      0.298     0.099      0.236     0.091      0.373     0.118 
#   5.550     0.194     0.082      0.304     0.098      0.245     0.095      0.388     0.123 
#   5.850     0.201     0.085      0.311     0.100      0.257     0.099      0.396     0.125 
#   6.150     0.208     0.087      0.315     0.096      0.265     0.101      0.407     0.129 
#   6.450     0.215     0.089      0.319     0.093      0.273     0.102      0.414     0.129 
#   6.750     0.219     0.090      0.327     0.095      0.283     0.106      0.419     0.132 
#   7.050     0.225     0.091      0.331     0.092      0.290     0.108      0.428     0.134 
#   7.350     0.227     0.094      0.335     0.087      0.298     0.110      0.432     0.138 
#   7.650     0.235     0.096      0.341     0.086      0.305     0.113      0.436     0.138 
#   7.950     0.241     0.098      0.348     0.085      0.310     0.114      0.441     0.139 
#   8.250     0.243     0.099      0.350     0.083      0.318     0.116      0.440     0.138 
#   8.550     0.249     0.100      0.355     0.079      0.327     0.115      0.447     0.138 
#   8.850     0.255     0.102      0.362     0.081      0.333     0.117      0.443     0.136 
#   9.150     0.259     0.104      0.374     0.081      0.338     0.118      0.441     0.131 
#   9.450     0.265     0.106      0.373     0.076      0.344     0.120      0.445     0.123 
#   9.750     0.270     0.109      0.378     0.075      0.351     0.124      0.452     0.122 
#  10.050     0.272     0.111      0.389     0.076      0.357     0.125      0.455     0.115 
#  10.350     0.278     0.113      0.394     0.074      0.363     0.127      0.458     0.112 
#  10.650     0.284     0.113      0.402     0.072      0.370     0.128      0.464     0.115 
#  10.950     0.288     0.118      0.407     0.069      0.376     0.126      0.467     0.111 
#  11.250     0.287     0.119      0.422     0.072      0.379     0.133      0.471     0.107 
#  11.550     0.292     0.123      0.428     0.070      0.385     0.132      0.477     0.105 
#  11.850     0.292     0.126      0.438     0.072      0.392     0.135      0.486     0.102 
#  12.150     0.292     0.127      0.442     0.063      0.397     0.135      0.492     0.101 
#  12.450     0.296     0.133      0.457     0.069      0.399     0.140      0.499     0.098 
#  12.750     0.294     0.137      0.470     0.070      0.410     0.139      0.512     0.100 
#  13.050     0.294     0.139      0.481     0.070      0.410     0.142      0.521     0.099 
#  13.350     0.296     0.142      0.490     0.065      0.418     0.144      0.530     0.101 
#  13.650     0.295     0.146      0.498     0.064      0.420     0.145      0.540     0.099 
#  13.950     0.293     0.152      0.514     0.064      0.422     0.149      0.550     0.100 
#  14.250     0.295     0.153      0.516     0.057      0.430     0.148      0.553     0.097 
#  14.550     0.299     0.155      0.532     0.059      0.431     0.150      0.560     0.095 
#  14.850     0.291     0.160      0.538     0.060      0.437     0.152      0.571     0.093 
#  15.150     0.297     0.160      0.548     0.061      0.437     0.155      0.581     0.097 
#  15.450     0.293     0.165      0.558     0.057      0.442     0.155      0.584     0.092 
#  15.750     0.299     0.166      0.570     0.056      0.449     0.161      0.587     0.087 
#  16.050     0.298     0.165      0.583     0.055      0.452     0.159      0.603     0.091 
#  16.350     0.301     0.166      0.584     0.050      0.450     0.162      0.608     0.090 
#  16.650     0.306     0.170      0.586     0.049      0.454     0.164      0.605     0.085 
#  16.950     0.309     0.169      0.600     0.053      0.460     0.163      0.603     0.071 
#  17.250     0.304     0.167      0.609     0.050      0.458     0.166      0.621     0.078 
#  17.550     0.309     0.172      0.608     0.050      0.460     0.168      0.624     0.075 
#  17.850     0.308     0.173      0.628     0.046      0.468     0.167      0.629     0.070 
#  18.150     0.304     0.169      0.632     0.036      0.465     0.172      0.640     0.071 
#  18.450     0.300     0.170      0.643     0.034      0.463     0.177      0.655     0.069 
#  18.750     0.308     0.173      0.651     0.041      0.473     0.174      0.664     0.074 
#  19.050     0.301     0.174      0.654     0.034      0.472     0.178      0.660     0.064 
#  19.350     0.306     0.167      0.671     0.034      0.474     0.179      0.681     0.065 
#  19.650     0.312     0.171      0.673     0.031      0.478     0.187      0.694     0.066 
#  19.950     0.306     0.168      0.678     0.041      0.468     0.189      0.692     0.070 
#  20.250     0.300     0.166      0.703     0.035      0.473     0.194      0.710     0.064 
#  20.550     0.300     0.165      0.702     0.037      0.472     0.185      0.711     0.063 
#  20.850     0.305     0.166      0.720     0.037      0.470     0.196      0.712     0.059 
#  21.150     0.275     0.161      0.748     0.078      0.447     0.191      0.759     0.071 
