#Derived Basis Spectrum set for calculating CD spectra
#spectrum_list: /home/gnagy/Documents/Gottingen/IDPs/experiments/CD_test/sets/spectrum_SP175.inp
#SS_list: /home/gnagy/Documents/Gottingen/IDPs/experiments/CD_test/sets/DISICL_simple_SP175.inp
#Number of decomposed  spectra: 71

#Combination matrix for Structural Properties:
#Basis/  3HT       HEL       BS        IRB       BT        OTT       LHT       UC        
# 3HT :    1.000    0.000    0.000    0.000    0.000    0.000    0.000    0.000  
# HEL :    0.000    1.000    0.000    0.000    0.000    0.000    0.000    0.000  
# BS :    0.000    0.000    1.000    0.000    0.000    0.000    0.000    0.000  
# IRB :    0.000    0.000    0.000    1.000    0.000    0.000    0.000    0.000  
# BT :    0.000    0.000    0.000    0.000    1.000    0.000    0.000    0.000  
# OTT :    0.000    0.000    0.000    0.000    0.000    1.000    0.000    0.000  
# LHT :    0.000    0.000    0.000    0.000    0.000    0.000    1.000    0.000  
# UC :    0.000    0.000    0.000    0.000    0.000    0.000    0.000    1.000  


#|  Wavelength      3HT            HEL            BS             IRB            BT             OTT            LHT            UC             
#      nm        T (10^3)       T (10^3)       T (10^3)       T (10^3)       T (10^3)       T (10^3)       T (10^3)       T (10^3)      
     269.0         0.138          0.159          0.394         -0.852          2.481         -0.261          0.428         -0.567      
     268.0        -0.723          0.451          0.412          0.316          1.596         -0.201         -3.851         -0.535      
     267.0         0.244          0.054          0.283         -0.583          0.689         -0.578         -2.573         -0.096      
     266.0         0.176         -0.149          0.096         -1.471          1.767         -0.025         -3.216          0.352      
     265.0         0.091         -0.158          0.080         -1.264          1.842          0.115         -2.864          0.287      
     264.0        -0.213         -0.054          0.020         -0.360          1.219          0.565         -2.127          0.076      
     263.0        -0.099          0.005          0.122          0.214         -0.668          0.597         -0.950         -0.210      
     262.0         0.546         -0.158          0.135          0.286         -2.178         -0.187          0.399         -0.104      
     261.0         1.242         -0.368          0.050          0.141         -2.776         -0.844          3.647          0.028      
     260.0         0.989         -0.343         -0.101          0.180         -1.435         -0.267          4.152          0.090      
     259.0        -0.011         -0.061         -0.189          1.251         -1.813          1.005          3.594         -0.140      
     258.0        -0.483          0.047         -0.321          1.320         -2.401          1.924          3.779         -0.088      
     257.0        -0.424          0.019         -0.277          1.065         -3.116          1.865          4.058         -0.089      
     256.0         0.096         -0.042         -0.082          1.315         -3.031          0.783          3.436         -0.331      
     255.0         0.891         -0.235         -0.016          0.724         -2.153         -0.746          4.730         -0.204      
     254.0         0.951         -0.237          0.026          0.673         -0.891         -0.996          4.120         -0.244      
     253.0         0.984         -0.218          0.127         -0.026         -1.180         -0.391          1.671         -0.228      
     252.0         1.044         -0.350          0.055         -0.522         -3.396          0.388          2.025          0.010      
     251.0         1.154         -0.446          0.024         -0.412         -4.817          0.876          0.675          0.084      
     250.0         0.942         -0.384          0.122          0.544         -5.137          0.746          0.612         -0.281      
     249.0         0.602         -0.384          0.202          0.381         -4.611          0.791          1.035         -0.377      
     248.0         0.227         -0.319          0.414          0.521         -3.375          0.031          0.996         -0.646      
     247.0         0.143         -0.392          0.635         -0.068         -1.536         -0.608          0.017         -0.797      
     246.0         0.372         -0.651          0.831         -0.718         -1.001         -1.291          1.224         -0.866      
     245.0         0.582         -0.974          1.079         -1.112          0.258         -2.083          1.259         -1.094      
     244.0         0.735         -1.259          1.361         -0.436          1.502         -2.666         -0.345         -1.646      
     243.0         0.714         -1.673          1.590         -1.242          3.035         -2.830          0.864         -1.873      
     242.0         0.828         -2.272          1.854         -1.718          3.099         -3.449          1.246         -1.988      
     241.0         0.470         -2.897          2.195         -1.631          5.205         -4.116         -0.727         -2.233      
     240.0         0.758         -3.862          2.534         -2.545          5.096         -4.906         -0.258         -2.134      
     239.0         1.316         -5.145          3.046         -3.304          5.015         -6.081         -0.947         -2.239      
     238.0         1.868         -6.552          3.627         -3.693          6.621         -7.015         -5.578         -2.530      
     237.0         2.655         -8.251          4.268         -6.244          9.295         -8.472         -7.599         -2.453      
     236.0         3.394         -10.074          4.957         -7.666         11.016         -10.875         -10.394         -2.423      
     235.0         3.628         -11.921          5.886         -9.428         15.641         -13.803         -15.507         -2.617      
     234.0         4.215         -14.087          6.779         -11.913         18.457         -16.411         -21.709         -2.484      
     233.0         4.819         -16.435          7.758         -14.020         21.911         -19.414         -30.166         -2.592      
     232.0         5.952         -19.090          8.509         -16.000         25.799         -22.206         -38.669         -2.726      
     231.0         7.358         -21.934          8.982         -17.600         28.107         -23.638         -45.808         -2.943      
     230.0         9.609         -24.845          9.391         -17.529         30.449         -26.482         -50.498         -3.671      
     229.0        11.646         -27.616          9.550         -17.217         32.993         -28.395         -51.078         -4.599      
     228.0        13.639         -30.235          9.450         -16.953         34.677         -29.017         -51.358         -5.506      
     227.0        14.949         -32.438          9.081         -15.537         34.635         -28.660         -51.982         -6.500      
     226.0        16.250         -34.385          8.449         -14.255         33.172         -28.142         -51.146         -7.246      
     225.0        16.788         -35.828          7.626         -11.784         32.662         -26.524         -49.505         -8.416      
     224.0        17.465         -36.757          6.860         -8.251         32.718         -25.921         -48.468         -10.001      
     223.0        17.544         -37.285          5.792         -5.097         31.435         -23.883         -44.983         -11.329      
     222.0        17.407         -37.512          4.642         -3.075         29.977         -20.882         -41.306         -12.378      
     221.0        17.038         -37.332          3.592         -1.056         26.398         -17.636         -38.215         -13.430      
     220.0        16.868         -36.929          2.788          0.145         21.690         -15.355         -34.929         -14.286      
     219.0        16.857         -36.366          2.119          0.400         19.858         -14.184         -31.685         -15.064      
     218.0        16.402         -35.531          1.620          1.512         18.878         -13.319         -30.376         -15.970      
     217.0        15.874         -34.893          1.212          0.719         18.757         -12.168         -26.039         -16.373      
     216.0        15.033         -34.373          1.021         -0.783         20.183         -10.486         -21.274         -16.598      
     215.0        13.886         -33.850          1.286         -2.540         23.817         -10.769         -15.557         -16.823      
     214.0        12.413         -33.516          1.872         -4.790         27.270         -11.729         -10.105         -16.649      
     213.0        11.051         -33.411          2.676         -8.479         32.210         -13.585         -3.960         -16.273      
     212.0         8.121         -33.252          3.791         -12.141         37.874         -14.688         -0.018         -15.867      
     211.0         5.069         -33.396          5.183         -16.097         42.724         -17.133          8.720         -15.354      
     210.0         1.737         -33.400          6.905         -19.962         48.155         -21.253         16.534         -14.867      
     209.0        -3.108         -32.718          8.979         -23.543         54.317         -26.916         22.496         -14.260      
     208.0        -8.690         -30.981         11.405         -28.669         60.196         -33.757         27.120         -13.205      
     207.0        -14.935         -27.705         13.906         -35.670         67.223         -42.762         32.823         -11.551      
     206.0        -23.045         -22.461         16.645         -43.740         77.809         -52.742         36.282         -9.747      
     205.0        -30.616         -15.868         19.198         -52.562         87.183         -64.135         45.843         -7.635      
     204.0        -37.420         -7.999         21.212         -60.904         98.275         -76.201         61.251         -5.691      
     203.0        -44.412          0.839         22.733         -69.163         109.883         -83.944         80.224         -4.204      
     202.0        -49.262         10.226         23.688         -77.750         119.522         -88.342         109.407         -3.445      
     201.0        -53.269         20.436         24.054         -87.058         125.244         -87.357         141.303         -2.927      
     200.0        -57.391         31.586         23.976         -96.265         128.966         -80.920         169.264         -2.870      
     199.0        -60.702         43.203         23.555         -105.543         127.640         -69.358         191.480         -3.029      
     198.0        -64.156         54.691         22.310         -111.844         123.424         -52.617         207.143         -3.490      
     197.0        -66.595         64.902         20.759         -115.210         116.093         -32.676         209.842         -4.463      
     196.0        -67.088         72.866         18.606         -113.226         101.735         -12.522         208.016         -5.537      
     195.0        -67.467         78.326         15.326         -104.770         77.805         10.031         207.606         -6.218      
     194.0        -68.094         81.400         11.177         -91.415         50.937         31.599         207.755         -6.047      
     193.0        -67.309         82.165          6.685         -75.684         26.662         48.546         208.124         -5.279      
     192.0        -66.419         80.774          1.651         -61.394          7.123         62.115         210.452         -2.684      
     191.0        -64.368         77.759         -2.916         -47.143         -7.195         69.195         209.554         -0.093      
     190.0        -60.767         73.182         -7.013         -35.103         -15.035         68.947         205.726          3.072      
     189.0        -56.759         67.282         -10.888         -23.963         -20.559         66.048         202.857          6.078      
     188.0        -51.805         60.937         -13.933         -13.306         -22.034         60.459         194.368          7.640      
     187.0        -44.946         54.385         -16.747         -2.749         -23.554         51.143         186.398          8.311      
     186.0        -37.684         47.862         -19.313          5.931         -23.289         40.526         176.517          8.769      
     185.0        -31.274         42.215         -21.356         15.196         -24.761         30.712         168.045          7.769      
     184.0        -26.682         37.307         -23.074         23.142         -24.607         21.049         161.610          6.319      
     183.0        -23.936         33.023         -24.285         29.720         -22.890         13.152         150.305          4.361      
     182.0        -21.166         29.493         -25.549         37.141         -23.647          7.076         137.737          1.727      
     181.0        -19.320         26.659         -26.974         43.983         -26.847          1.241         130.007         -0.420      
     180.0        -17.146         24.128         -28.263         49.953         -28.224         -3.557         120.759         -2.651      
     179.0        -14.752         22.109         -28.819         53.835         -27.534         -7.692         107.977         -5.479      
     178.0        -13.710         20.447         -28.806         56.690         -29.376         -10.130         92.808         -8.221      
     177.0        -12.570         18.695         -28.483         57.381         -29.564         -11.451         71.933         -10.386      
     176.0        -9.572         16.684         -27.652         56.071         -33.126         -11.293         50.752         -12.715      
     175.0        -8.831         14.641         -27.188         56.441         -36.182         -10.593         35.428         -13.879      
